Data Saved Successfully
Date and Time: 2018_08_28__17_43_46
Name: M18 turn, centered, 60 deg
Description: repeating M18 turn measurements to double check the last ones; shortened sample rack parts and reinstalled; slit width at 0.59; using log scale, long time constant; 500 ms wait time, 50 avgs, using median instead of mean; rate uses updated calibration and deadtime correction
Substance: vacuum
Sample ID: 3
Preamp Sensitivity: 100.000000
Incident Angle: 60.000000
Incident Power: 987000.000000
Wavelength: 175.000000
Temperature: 300.000000
Pressure: 1.013000
85.000000	920.503521	35.552189
84.500000	1016.602523	33.857343
84.000000	1122.338668	41.434308
83.500000	1228.171380	20.963007
83.000000	1340.307651	41.718087
82.500000	1496.071953	42.552811
82.000000	1518.082454	43.019454
81.500000	1648.545292	40.925544
81.000000	1672.196388	64.772078
80.500000	1756.833405	68.871661
80.000000	1785.657793	73.161082
79.500000	1799.913016	67.971180
79.000000	1924.578987	38.443226
78.500000	2000.091266	97.524521
78.000000	2181.479394	116.664021
77.500000	2179.856526	70.573406
77.000000	2232.953001	96.852890
76.500000	2311.195750	76.064519
76.000000	2359.195526	105.366503
75.500000	2377.617704	97.855332
75.000000	2406.418037	76.927130
74.500000	2534.053246	82.308401
74.000000	2578.092715	78.739845
73.500000	2663.542417	74.673051
73.000000	2773.358129	111.696872
72.500000	2766.689168	99.712494
72.000000	2797.627979	100.955736
71.500000	2851.547219	134.748173
71.000000	2977.422785	88.926434
70.500000	3005.710232	89.050278
70.000000	3085.896582	105.606534
69.500000	3115.237052	99.173676
69.000000	3213.218469	111.454804
68.500000	3244.353166	122.337704
68.000000	3194.802817	147.968575
67.500000	3232.945840	119.132000
67.000000	3283.711903	129.178237
66.500000	3398.991555	95.930159
66.000000	3255.221247	125.989843
65.500000	3397.100315	141.711331
65.000000	3346.434585	138.505373
64.500000	3366.983875	136.531019
64.000000	3400.883853	165.150766
63.500000	3463.927115	113.478899
63.000000	3494.914927	186.100958
62.500000	3553.769844	120.659206
62.000000	3481.963169	95.994396
61.500000	3467.129223	187.647125
61.000000	3375.126344	127.884473
60.500000	3425.580273	89.646168
60.000000	3257.631269	115.565746
59.500000	3300.805195	110.715538
59.000000	3249.791683	74.781288
58.500000	3185.927269	116.508980
58.000000	3133.767157	130.558676
57.500000	3088.197832	106.984757
57.000000	2992.365008	109.767573
56.500000	2992.930967	106.869152
56.000000	2862.669056	121.749715
55.500000	2781.604917	88.234724
55.000000	2728.498662	63.871909
54.500000	2647.319484	103.453378
54.000000	2666.016323	79.412645
53.500000	2557.640332	100.888500
53.000000	2471.013266	63.096484
52.500000	2400.181925	71.160260
52.000000	2320.639207	86.359257
51.500000	2289.052325	103.287570
51.000000	2180.268183	71.500322
50.500000	2049.551597	70.787186
50.000000	2079.353833	78.827096
49.500000	2011.962982	63.360688
49.000000	1947.500887	119.152596
48.500000	1826.069822	86.453764
48.000000	1757.808429	51.065381
47.500000	1771.506131	67.577374
47.000000	1714.779728	63.665382
46.500000	1580.219117	41.253860
46.000000	1561.056631	39.004278
45.500000	1565.964211	61.999515
45.000000	1563.066348	78.530076
44.500000	1520.609879	62.183338
44.000000	1508.014858	50.222838
43.500000	1433.294093	54.307260
43.000000	1420.897174	41.825996
42.500000	1371.882044	37.456897
42.000000	1325.540433	29.723253
41.500000	1308.504952	31.452885
41.000000	1280.769609	35.344929
40.500000	1266.878206	33.485919
40.000000	1245.999504	45.981695
39.500000	1187.798141	29.743931
39.000000	1215.094657	31.992918
38.500000	1170.383860	44.190365
38.000000	1201.032550	41.774431
37.500000	1159.625405	31.848786
37.000000	1153.436505	54.925309
36.500000	1172.765814	37.037151
36.000000	1159.625405	38.276697
35.500000	1144.519499	43.845943
35.000000	1154.075638	34.813259
34.500000	1119.023830	43.601205
34.000000	1138.619580	33.052349
33.500000	1134.627834	56.294335
33.000000	1119.234594	37.522563
32.500000	1133.584997	27.964183
32.000000	1194.178610	29.736404
31.500000	1121.300948	26.395580
31.000000	1158.559523	33.868190
30.500000	1125.239437	30.546579
30.000000	1147.274381	35.530703
29.500000	1123.993552	41.818761
29.000000	1122.127317	28.867267
28.500000	1086.254244	34.478152
28.000000	1123.165804	31.482178
27.500000	1115.731170	22.662379
27.000000	1115.521068	56.290577
26.500000	1132.122878	27.187570
26.000000	1079.656448	48.327202
25.500000	1089.870067	33.601087
25.000000	1104.044674	18.309942
24.500000	1096.931373	24.719472
24.000000	1106.904157	24.229364
23.500000	1109.764920	26.085363
23.000000	1152.159305	39.716547
22.500000	1073.098836	29.337752
22.000000	1129.617211	43.792080
21.500000	1108.542358	41.610858
21.000000	1071.519092	31.890803
20.500000	1108.745001	31.157923
20.000000	1098.560857	28.402213
19.500000	1113.261888	39.794353
19.000000	1081.451851	40.337935
18.500000	1081.649528	32.852458
18.000000	1091.078022	35.745237
17.500000	1075.478789	28.162617
17.000000	1100.180581	45.494928
16.500000	1136.943097	47.533063
16.000000	1090.878617	22.390615
15.500000	1142.827972	27.387660
15.000000	1098.560857	31.372775
14.500000	1105.880749	37.249007
14.000000	1067.568102	23.174704
13.500000	1113.668941	29.113513
13.000000	1084.252655	43.553590
12.500000	1102.010211	30.852439
12.000000	1110.798086	38.007613
11.500000	1106.904157	41.945731
11.000000	1130.036522	34.729721
10.500000	1120.270396	30.172899
10.000000	1135.677924	42.719793
9.500000	1111.819899	37.735655
9.000000	1076.277256	39.380816
8.500000	1111.819899	26.291605
8.000000	1118.614813	22.552190
7.500000	1061.477912	61.285546
7.000000	1096.530454	32.863541
6.500000	1096.129683	28.035549
6.000000	1083.250249	44.718984
5.500000	1103.023918	31.088235
5.000000	1124.828142	34.207894
4.500000	1100.180581	25.646003
4.000000	1057.956538	22.817230
3.500000	1066.776114	26.692109
3.000000	1106.089031	22.728895
2.500000	1114.489670	45.179845
2.000000	1118.614813	38.272113
1.500000	1127.741612	30.841393
1.000000	1132.957246	27.956014
0.500000	1084.252655	27.223292
0.000000	1163.486200	33.659913
